Howland Wireless Test Lab  Ver: V7.05
Date: 8/24/2022
Time: 9:17 AM
File Name: C:\wtl data files\Calibration\temp3 TRP Ch0.txt

Total Radiated Power Test
______________________

Device Under Test (DUT): 
DUT Test Position: Free Space

Test Band: 1
Test Channel: 0
Test Frequency: 940.000 MHz

Test Type: Semi-Discrete Angle Based Test
Test Duration: 2:06
Test Comments: 

Theta VPOL Antenna: Horn Antenna 
Theta HPOL Antenna: Horn Antenna
Phi Antenna: Device Under Test

VPOL Receiver: Rohde & Schwarz FSV top Spectrum Analyzer
HPOL Receiver: Rohde & Schwarz FSV bottom Spectrum Analyzer 2
Measurement Mode: Default ContAvg
Aperture: 20.00 mSec
Averaging: 8
Settling Time: N/A

Axis1 Name: PHI
Axis1 Start Angle: 0.000 Deg
Axis1 Stop Angle: 345.000 Deg
Axis1 Increment: 15.000 Deg
Axis1 Speed: 60.0 Deg/Sec
Axis1 Dwell: N/A Sec

Axis2 Name: THETA
Axis2 Start Angle: 0.000 Deg
Axis2 Stop Angle: 165.000 Deg
Axis2 Increment: 15.000 Deg
Axis2 Speed: 5 Deg/Sec
Axis2 Dwell: 0.000 Sec


+++++++  Test Data Summary +++++++
Path Loss HPOL Cal Factor = 35.86 dB
Path Loss VPOL Cal Factor = 35.40 dB

Calculated TRP = -0.28 dBm

*******  Test Data Results  ********
 THETA	  PHI	 H-Pol	 V-Pol
 (deg)	 (deg)	 (dbm)	 (dBm)
   0.00	   0.26	-62.131	-69.954
   0.00	  15.50	-61.958	-69.733
   0.00	  30.74	-61.955	-68.518
   0.00	  45.32	-62.067	-66.627
   0.00	  60.38	-62.315	-64.913
   0.00	  75.62	-62.630	-63.425
   0.00	  90.50	-62.928	-62.323
   0.00	 105.50	-63.164	-61.648
   0.00	 120.08	-63.160	-61.447
   0.00	 135.32	-62.837	-61.495
   0.00	 150.74	-62.189	-61.907
   0.00	 165.38	-61.513	-62.655
   0.00	 180.26	-60.946	-63.629
   0.00	 195.32	-60.553	-65.096
   0.00	 210.32	-60.349	-66.556
   0.00	 225.14	-60.328	-68.029
   0.00	 240.38	-60.564	-69.001
   0.00	 255.50	-60.898	-69.054
   0.00	 270.20	-61.421	-68.491
   0.00	 285.56	-61.941	-67.860
   0.00	 300.14	-62.410	-67.568
   0.00	 315.14	-62.679	-67.693
   0.00	 330.38	-62.662	-68.247
   0.00	 345.20	-62.353	-69.265
  15.00	   0.62	-62.452	-44.671
  15.00	  15.08	-62.639	-44.837
  15.00	  30.62	-62.937	-45.036
  15.00	  45.26	-63.050	-45.245
  15.00	  60.50	-63.162	-45.419
  15.00	  75.08	-63.014	-45.583
  15.00	  90.26	-62.596	-45.710
  15.00	 105.62	-61.937	-45.810
  15.00	 120.38	-61.093	-45.847
  15.00	 135.20	-60.268	-45.837
  15.00	 150.26	-59.448	-45.754
  15.00	 165.08	-58.769	-45.632
  15.00	 180.08	-58.210	-45.471
  15.00	 195.08	-57.860	-45.275
  15.00	 210.68	-57.708	-45.069
  15.00	 225.74	-57.679	-44.874
  15.00	 240.44	-57.855	-44.706
  15.00	 255.32	-58.160	-44.540
  15.00	 270.32	-58.681	-44.418
  15.00	 285.26	-59.394	-44.348
  15.00	 300.26	-60.189	-44.314
  15.00	 315.26	-60.944	-44.337
  15.00	 330.62	-61.633	-44.410
  15.00	 345.56	-62.115	-44.518
  30.00	   0.53	-67.150	-41.547
  30.00	  15.59	-67.401	-41.675
  30.00	  30.17	-67.463	-41.807
  30.00	  45.41	-67.534	-41.914
  30.00	  60.17	-67.569	-42.046
  30.00	  75.29	-67.399	-42.158
  30.00	  90.41	-66.738	-42.245
  30.00	 105.65	-65.617	-42.296
  30.00	 120.11	-64.297	-42.310
  30.00	 135.59	-62.909	-42.297
  30.00	 150.59	-61.621	-42.265
  30.00	 165.29	-60.695	-42.178
  30.00	 180.41	-59.799	-42.085
  30.00	 195.47	-59.182	-41.967
  30.00	 210.11	-58.882	-41.838
  30.00	 225.11	-58.767	-41.698
  30.00	 240.47	-58.949	-41.574
  30.00	 255.11	-59.374	-41.460
  30.00	 270.53	-60.124	-41.365
  30.00	 285.41	-61.151	-41.318
  30.00	 300.47	-62.406	-41.304
  30.00	 315.23	-63.808	-41.312
  30.00	 330.41	-65.235	-41.365
  30.00	 345.29	-66.389	-41.442
  45.00	   0.19	-67.962	-37.497
  45.00	  15.13	-67.345	-37.535
  45.00	  30.31	-66.687	-37.591
  45.00	  45.37	-66.573	-37.653
  45.00	  60.19	-66.889	-37.721
  45.00	  75.37	-67.457	-37.786
  45.00	  90.37	-68.140	-37.844
  45.00	 105.19	-68.350	-37.881
  45.00	 120.55	-67.363	-37.912
  45.00	 135.31	-66.215	-37.919
  45.00	 150.19	-64.475	-37.907
  45.00	 165.37	-63.001	-37.890
  45.00	 180.25	-61.962	-37.849
  45.00	 195.31	-61.170	-37.800
  45.00	 210.19	-60.605	-37.734
  45.00	 225.31	-60.436	-37.670
  45.00	 240.19	-60.677	-37.600
  45.00	 255.49	-61.050	-37.541
  45.00	 270.07	-61.828	-37.487
  45.00	 285.19	-62.911	-37.459
  45.00	 300.13	-64.239	-37.437
  45.00	 315.25	-65.796	-37.434
  45.00	 330.43	-67.031	-37.442
  45.00	 345.61	-67.973	-37.467
  60.00	   0.26	-60.012	-35.492
  60.00	  15.44	-60.624	-35.542
  60.00	  30.08	-60.880	-35.580
  60.00	  45.26	-60.902	-35.618
  60.00	  60.26	-60.724	-35.642
  60.00	  75.38	-60.297	-35.672
  60.00	  90.74	-59.618	-35.702
  60.00	 105.68	-58.833	-35.708
  60.00	 120.50	-57.997	-35.714
  60.00	 135.50	-57.060	-35.708
  60.00	 150.08	-56.309	-35.687
  60.00	 165.32	-55.657	-35.655
  60.00	 180.44	-55.251	-35.639
  60.00	 195.74	-54.921	-35.613
  60.00	 210.74	-54.798	-35.593
  60.00	 225.32	-54.893	-35.568
  60.00	 240.56	-55.110	-35.533
  60.00	 255.32	-55.457	-35.497
  60.00	 270.50	-55.920	-35.459
  60.00	 285.08	-56.403	-35.436
  60.00	 300.14	-57.047	-35.423
  60.00	 315.14	-57.743	-35.419
  60.00	 330.50	-58.521	-35.429
  60.00	 345.50	-59.379	-35.456
  75.00	   0.38	-59.504	-34.361
  75.00	  15.56	-59.679	-34.371
  75.00	  30.26	-59.760	-34.367
  75.00	  45.20	-59.637	-34.366
  75.00	  60.74	-59.492	-34.372
  75.00	  75.20	-59.234	-34.385
  75.00	  90.20	-58.708	-34.383
  75.00	 105.38	-58.082	-34.388
  75.00	 120.26	-57.375	-34.380
  75.00	 135.32	-56.775	-34.367
  75.00	 150.62	-56.197	-34.363
  75.00	 165.56	-55.696	-34.365
  75.00	 180.38	-55.217	-34.379
  75.00	 195.20	-54.797	-34.394
  75.00	 210.26	-54.419	-34.392
  75.00	 225.56	-54.306	-34.384
  75.00	 240.08	-54.369	-34.361
  75.00	 255.26	-54.747	-34.331
  75.00	 270.14	-55.306	-34.312
  75.00	 285.68	-55.994	-34.299
  75.00	 300.44	-56.779	-34.299
  75.00	 315.14	-57.606	-34.310
  75.00	 330.38	-58.411	-34.328
  75.00	 345.50	-59.049	-34.348
  90.00	   0.49	-60.395	-33.509
  90.00	  15.55	-60.681	-33.523
  90.00	  30.25	-60.727	-33.522
  90.00	  45.31	-60.521	-33.517
  90.00	  60.25	-60.330	-33.509
  90.00	  75.37	-60.001	-33.511
  90.00	  90.37	-59.465	-33.503
  90.00	 105.61	-58.849	-33.494
  90.00	 120.25	-58.236	-33.484
  90.00	 135.61	-57.497	-33.480
  90.00	 150.07	-56.870	-33.466
  90.00	 165.61	-56.349	-33.460
  90.00	 180.19	-55.998	-33.462
  90.00	 195.13	-55.772	-33.473
  90.00	 210.67	-55.631	-33.484
  90.00	 225.25	-55.698	-33.488
  90.00	 240.67	-55.960	-33.483
  90.00	 255.31	-56.338	-33.464
  90.00	 270.55	-56.766	-33.450
  90.00	 285.55	-57.399	-33.441
  90.00	 300.19	-58.006	-33.452
  90.00	 315.67	-58.657	-33.472
  90.00	 330.67	-59.288	-33.487
  90.00	 345.67	-59.937	-33.498
 105.00	   0.64	-59.772	-33.836
 105.00	  15.46	-60.210	-33.809
 105.00	  30.46	-60.543	-33.784
 105.00	  45.46	-60.778	-33.761
 105.00	  60.10	-60.699	-33.733
 105.00	  75.16	-60.439	-33.709
 105.00	  90.70	-60.048	-33.679
 105.00	 105.22	-59.492	-33.659
 105.00	 120.16	-58.730	-33.654
 105.00	 135.58	-57.877	-33.669
 105.00	 150.16	-57.029	-33.685
 105.00	 165.34	-56.252	-33.687
 105.00	 180.16	-55.674	-33.696
 105.00	 195.64	-55.350	-33.701
 105.00	 210.40	-55.259	-33.719
 105.00	 225.16	-55.463	-33.753
 105.00	 240.52	-55.760	-33.802
 105.00	 255.52	-56.070	-33.845
 105.00	 270.64	-56.412	-33.897
 105.00	 285.64	-56.810	-33.933
 105.00	 300.34	-57.274	-33.951
 105.00	 315.70	-57.803	-33.940
 105.00	 330.40	-58.450	-33.911
 105.00	 345.64	-59.122	-33.870
 120.00	   0.31	-62.037	-35.420
 120.00	  15.20	-61.761	-35.378
 120.00	  30.67	-61.502	-35.317
 120.00	  45.61	-61.276	-35.255
 120.00	  60.49	-61.236	-35.209
 120.00	  75.43	-61.107	-35.168
 120.00	  90.19	-60.907	-35.150
 120.00	 105.55	-60.488	-35.132
 120.00	 120.19	-59.934	-35.119
 120.00	 135.67	-59.329	-35.119
 120.00	 150.61	-58.780	-35.138
 120.00	 165.31	-58.271	-35.153
 120.00	 180.49	-57.734	-35.201
 120.00	 195.49	-57.258	-35.244
 120.00	 210.43	-56.850	-35.283
 120.00	 225.37	-56.659	-35.313
 120.00	 240.61	-56.797	-35.335
 120.00	 255.43	-57.338	-35.368
 120.00	 270.19	-58.125	-35.398
 120.00	 285.25	-59.184	-35.428
 120.00	 300.07	-60.258	-35.438
 120.00	 315.13	-61.257	-35.459
 120.00	 330.55	-61.927	-35.463
 120.00	 345.55	-62.161	-35.453
 135.00	   0.23	-59.615	-37.404
 135.00	  15.41	-59.594	-37.345
 135.00	  30.23	-59.387	-37.267
 135.00	  45.65	-59.022	-37.162
 135.00	  60.59	-58.605	-37.079
 135.00	  75.23	-58.115	-37.026
 135.00	  90.29	-57.675	-36.978
 135.00	 105.11	-57.239	-36.928
 135.00	 120.23	-56.803	-36.882
 135.00	 135.47	-56.456	-36.854
 135.00	 150.59	-56.167	-36.860
 135.00	 165.17	-55.962	-36.900
 135.00	 180.29	-55.655	-36.956
 135.00	 195.41	-55.512	-37.037
 135.00	 210.29	-55.351	-37.124
 135.00	 225.71	-55.329	-37.211
 135.00	 240.53	-55.403	-37.269
 135.00	 255.41	-55.676	-37.296
 135.00	 270.65	-56.221	-37.329
 135.00	 285.35	-56.867	-37.362
 135.00	 300.23	-57.614	-37.387
 135.00	 315.35	-58.454	-37.429
 135.00	 330.11	-59.041	-37.447
 135.00	 345.53	-59.457	-37.441
 150.00	   0.31	-61.268	-40.869
 150.00	  15.67	-61.526	-40.825
 150.00	  30.25	-61.767	-40.780
 150.00	  45.49	-62.056	-40.724
 150.00	  60.61	-62.398	-40.650
 150.00	  75.13	-62.844	-40.551
 150.00	  90.31	-63.167	-40.412
 150.00	 105.61	-63.323	-40.314
 150.00	 120.43	-62.951	-40.280
 150.00	 135.31	-62.160	-40.269
 150.00	 150.49	-61.247	-40.279
 150.00	 165.19	-60.423	-40.298
 150.00	 180.55	-60.025	-40.333
 150.00	 195.37	-60.126	-40.393
 150.00	 210.31	-60.483	-40.490
 150.00	 225.37	-60.919	-40.631
 150.00	 240.37	-61.230	-40.769
 150.00	 255.49	-61.145	-40.888
 150.00	 270.73	-60.778	-40.978
 150.00	 285.37	-60.536	-41.012
 150.00	 300.13	-60.346	-41.008
 150.00	 315.61	-60.400	-40.993
 150.00	 330.37	-60.601	-40.949
 150.00	 345.31	-60.933	-40.913
 165.00	   0.25	-67.657	-45.904
 165.00	  15.25	-68.060	-45.741
 165.00	  30.13	-68.640	-45.651
 165.00	  45.07	-69.589	-45.580
 165.00	  60.61	-70.702	-45.418
 165.00	  75.61	-72.234	-45.236
 165.00	  90.61	-74.560	-45.083
 165.00	 105.61	-73.710	-44.994
 165.00	 120.25	-68.357	-45.002
 165.00	 135.73	-64.362	-45.037
 165.00	 150.61	-61.770	-45.118
 165.00	 165.55	-60.003	-45.193
 165.00	 180.25	-58.972	-45.218
 165.00	 195.61	-58.314	-45.228
 165.00	 210.67	-58.157	-45.221
 165.00	 225.67	-58.521	-45.263
 165.00	 240.67	-59.259	-45.404
 165.00	 255.37	-59.845	-45.624
 165.00	 270.25	-60.436	-45.908
 165.00	 285.25	-60.795	-46.232
 165.00	 300.43	-61.190	-46.467
 165.00	 315.25	-62.239	-46.552
 165.00	 330.49	-64.106	-46.424
 165.00	 345.31	-65.928	-46.168
